<Bundle xmlns="http://hl7.org/fhir">
   <type value="transaction"></type>
   <entry>
      <fullUrl value="urn:uuid:bb73165c-c7b9-4342-8e28-531f07fa7735"></fullUrl>
      <resource>
         <Organization xmlns="http://hl7.org/fhir">
            <meta>
               <tag>
                  <system value="http://highmed.org/fhir/CodeSystem/authorization-role"></system>
                  <code value="REMOTE"></code>
               </tag>
            </meta>
            <extension url="http://highmed.org/fhir/StructureDefinition/extension-certificate-thumbprint">
               <valueString value="70ecc86c9a5c945ac57a2a495fa24828bdece23b19f59ba3466617a86f778b71c33273b6b44aee0bc5a38c1ff63a756dca70e440376bac9adcc9f84be20c4e7a"></valueString>
            </extension>
            <identifier>
               <system value="http://highmed.org/fhir/NamingSystem/organization-identifier"></system>
               <value value="Test_ZARS"></value>
            </identifier>
            <active value="true"></active>
            <type>
               <coding>
                  <system value="http://highmed.org/fhir/CodeSystem/organization-type"></system>
                  <code value="MeDIC"></code>
               </coding>
            </type>
            <name value="Test ZARS"></name>
            <endpoint>
               <reference value="urn:uuid:169e782c-2673-40e9-8b30-f1dc46dba984"></reference>
               <type value="Endpoint"></type>
            </endpoint>
         </Organization>
      </resource>
      <request>
         <method value="POST"></method>
         <url value="Organization"></url>
         <ifNoneExist value="identifier=http://highmed.org/fhir/NamingSystem/organization-identifier|Test_ZARS"></ifNoneExist>
      </request>
   </entry>
   <entry>
      <fullUrl value="urn:uuid:cf62edc2-cc5d-43ed-ac0e-caf09f7326c3"></fullUrl>
      <resource>
         <Organization xmlns="http://hl7.org/fhir">
            <meta>
               <tag>
                  <system value="http://highmed.org/fhir/CodeSystem/authorization-role"></system>
                  <code value="REMOTE"></code>
               </tag>
            </meta>
            <extension url="http://highmed.org/fhir/StructureDefinition/extension-certificate-thumbprint">
               <valueString value="4136af1cc62a92c3fdc34422e302166fc2db23e88ff9ccc46f63111ba57e0897f67c7c8b84b59752372c77d7b611dc38d21e625a0a32ee454498189f09d6b200"></valueString>
            </extension>
            <identifier>
               <system value="http://highmed.org/fhir/NamingSystem/organization-identifier"></system>
               <value value="Test_DIC"></value>
            </identifier>
            <active value="true"></active>
            <type>
               <coding>
                  <system value="http://highmed.org/fhir/CodeSystem/organization-type"></system>
                  <code value="MeDIC"></code>
               </coding>
            </type>
            <name value="Test DIC"></name>
         </Organization>
      </resource>
      <request>
         <method value="POST"></method>
         <url value="Organization"></url>
         <ifNoneExist value="identifier=http://highmed.org/fhir/NamingSystem/organization-identifier|Test_DIC"></ifNoneExist>
      </request>
   </entry>
   <entry>
      <fullUrl value="urn:uuid:169e782c-2673-40e9-8b30-f1dc46dba984"></fullUrl>
      <resource>
         <Endpoint xmlns="http://hl7.org/fhir">
            <meta>
               <tag>
                  <system value="http://highmed.org/fhir/CodeSystem/authorization-role"></system>
                  <code value="REMOTE"></code>
               </tag>
            </meta>
            <identifier>
               <system value="http://highmed.org/fhir/NamingSystem/endpoint-identifier"></system>
               <value value="Test_ZARS_Endpoint"></value>
            </identifier>
            <status value="active"></status>
            <connectionType>
               <system value="http://terminology.hl7.org/CodeSystem/endpoint-connection-type"></system>
               <code value="hl7-fhir-rest"></code>
            </connectionType>
            <managingOrganization>
               <reference value="urn:uuid:bb73165c-c7b9-4342-8e28-531f07fa7735"></reference>
               <type value="Organization"></type>
            </managingOrganization>
            <payloadType>
               <coding>
                  <system value="http://hl7.org/fhir/resource-types"></system>
                  <code value="Task"></code>
               </coding>
            </payloadType>
            <address value="https://dsf-zars-fhir-proxy/fhir"></address>
         </Endpoint>
      </resource>
      <request>
         <method value="POST"></method>
         <url value="Endpoint"></url>
         <ifNoneExist value="identifier=http://highmed.org/fhir/NamingSystem/endpoint-identifier|Test_ZARS_Endpoint"></ifNoneExist>
      </request>
   </entry>
</Bundle>